Folder: metodos_python/Trabalhando com textos/Papers_NotWorkingScripts/A meta-analysis of the mechanical

Note: README.md
# metodos_python
MÃ©todos python para consulta

File: CSs_dados_tratados_002.csv
Device ,Size [cm2],Temperature [C],Irradiance [W/m2],Jsc [mA/cm2],Isc [mA],Voc [mV],Impp [mA],Vmpp [mV],Pmpp [mW],FF [%],Eta [%],n1 ,n2 ,IscSlope [Ohm.cm2],Rshunt [Ohm.cm2],Rseries [mOhm.cm2],Jo1 [A/cm2],Jo2 [A/cm2],Slope Voc [mOhm.cm2],GaAs+PMMA+TR0%+L430W,GaAs+PMMA+TR1%+L430W,GaAs+PMMA+TR10%+L430W,GaAs+PMMA+TR15%+L430W,GaAs+PMMA+TR2%+L430W,GaAs+PMMA+TR3%+L430W,GaAs+PMMA+TR4%+L430W,GaAs+PMMA+TR5%+L430W,GaAs+PMMA+TR6%+L430W,GaAs+PMMA+TR7%+L430W,GaAs+PMMA+TR8%+L430W,GaAs+PMMA+TR9%+L430W,EuTTAbipy5%0.01,TiO4Al2O3,TiO2,TiO2Al2O3,Al2O3,-cap,RTA920,PMMA,TR,ARC,Submon2x4,SubMon2/4,SubMonML4/4,Al30%,Al82%,f2,f5,f8,f10,Ref GaAs,QDSKmeio,QDSKfundo,QDSK,I+,Si
3906,0.03538704,25.36,995.051,16.743,0.592484,882.761,0.520127,714.942,0.371861,71.0985,10.5084,0.0,0.0,298222,0.0,0.0,0.0,0,126296,0,0,0,0,0,0,0,0,0,0,0,0,0,0,0,0,0,0,0,0,0,0,0,0,0,0,0,0,0,0,0,0,0,0,0,0,0
3908,0.0483,25.0,996.818,16.1945,0.782192,944.352,0.73133,787.779,0.576127,77.9957,11.9281,2.6351,0.0,165690,0.0,0.074719,6.4238e-10,0,73992.1,0,0,0,0,0,0,0,0,0,0,0,0,0,0,0,0,0,1,0,0,0,0,0,0,0,0,0,0,0,1,0,0,0,0,0,0,0
3908,0.0483,25.0,1001.86,10.7076,0.517178,21.4818,0.265941,10.4328,0.00277451,24.9733,0.0574434,3.3,0.0,41.5509,0.0,45.686,0.0,0,41776.1,0,0,0,0,0,0,0,0,0,0,0,0,0,0,0,0,0,0,0,0,0,0,0,0,0,0,0,0,0,1,0,0,0,0,0,0,0
3908,0.0483,25.0,1001.86,12.1306,0.585906,897.618,0.547527,750.411,0.41087,78.124,8.50662,2.0091,0.0,,,,1.615e-11,0,,0,0,0,0,0,0,0,0,0,0,0,0,0,0,0,0,0,0,0,0,0,0,0,0,0,0,0,0,0,1,0,0,0,0,0,0,0
3908,0.0483,25.0,997.93,19.0385,0.919562,949.946,0.804151,754.456,0.606697,69.4532,12.561,2.144,0.0,,,,2.5845e-11,0,,0,0,0,0,0,0,0,0,0,0,0,0,0,0,0,0,0,1,0,1,1,0,0,0,0,0,0,0,0,1,0,0,0,0,0,0,0
3909,0.0483,25.0,996.818,13.9575,0.674148,565.867,0.49742,400.414,0.199174,52.2112,4.12369,3.993,0.0,4543.77,6093.1,0.28876,2.3065e-06,0,160678,0,0,0,0,0,0,0,0,0,0,0,0,0,0,0,0,0,1,0,0,0,0,0,0,0,0,0,1,0,0,0,0,0,0,0,0,0
3909,0.0483,25.0,1001.86,11.6489,0.562643,633.305,0.460747,484.15,0.223071,62.6033,4.61845,2.7786,0.0,19167.5,13163.6,2.1206e-11,7.1676e-08,0,128721,0,0,0,0,0,0,0,0,0,0,0,0,0,0,0,0,0,0,0,0,0,0,0,0,0,0,0,0,1,0,0,0,0,0,0,0,0
3909,0.0483,25.0,997.93,17.3076,0.835956,596.158,0.683815,451.231,0.308558,61.9145,6.38837,2.8263,0.0,12077,9919.65,1.5239e-13,2.0899e-07,0,88910.1,0,0,0,0,0,0,0,0,0,0,0,0,0,0,0,0,0,1,0,1,1,0,0,0,0,0,0,0,0,1,0,0,0,0,0,0,0
3909,0.0483,25.0,996.818,14.8534,0.717419,660.502,0.610973,515.636,0.315039,66.4841,6.52255,3.1145,0.0,,,,1.7818e-07,0,,0,0,0,0,0,0,0,0,0,0,0,0,0,0,0,0,0,1,0,0,0,0,0,0,0,0,0,0,0,1,0,0,0,0,0,0,0
3910,0.0483,25.0,1001.86,12.3648,0.597219,865.969,0.546203,703.211,0.384096,74.2684,7.9523,2.8392,0.0,71147.9,0.0,0.064328,3.9614e-09,0,108598,0,0,0,0,0,0,0,0,0,0,0,0,0,0,0,0,0,0,0,0,0,0,0,0,0,0,0,1,0,0,0,0,0,0,0,0,0
3910,0.0483,25.0,1001.86,12.2961,0.593904,881.403,0.541754,715.259,0.387494,74.0243,8.02266,2.6748,0.0,80446.9,106954,1.3165,1.5174e-09,0,123760,0,0,0,0,0,0,0,0,0,0,0,0,0,0,0,0,0,0,0,0,0,0,0,0,0,0,0,1,0,0,0,0,0,0,0,0,0
3910,0.0483,25.0,996.818,12.7953,0.618011,884.002,0.565998,763.117,0.431923,79.06,8.9425,1.7863,0.0,,,,2.4075e-12,0,,0,0,0,0,0,0,0,0,0,0,0,0,0,0,0,0,0,1,0,0,0,0,0,0,0,0,0,0,0,1,0,0,0,0,0,0,0
3941,0.0483,25.0,996.565,12.4161,0.599697,892.833,0.556745,724.466,0.403343,75.3307,8.35078,2.4452,0.0,196548,0.0,26.818,3.9323e-10,0,137233,0,0,0,0,0,0,0,0,0,0,0,0,0,0,0,0,0,0,0,0,0,0,0,0,0,0,1,0,0,0,0,0,0,0,0,0,0
3941,0.0483,25.0,996.565,12.0625,0.58262,892.438,0.453821,565.691,0.256722,49.3742,5.31516,5.0,0.0,17612.3,18349.3,341.62,5.2951e-07,0,612967,0,0,0,0,0,0,0,0,0,0,0,0,0,0,0,0,0,0,0,0,0,0,0,0,0,0,1,0,0,0,0,0,0,0,0,0,0
3941,0.0483,25.0,996.565,18.1917,0.878658,923.647,0.820278,766.05,0.628374,77.427,13.0098,2.0962,0.0,183571,458737,14.762,3.0795e-11,0,75114.2,0,0,0,0,0,0,0,0,0,0,0,0,0,0,0,0,0,1,0,0,0,0,0,0,0,0,1,0,0,0,0,0,0,0,0,0,0
3941,0.0483,25.0,996.565,0.659422,0.0318501,14.1882,0.0146702,6.77185,9.93444e-05,21.9839,0.00205682,2.7623,0.0,634.048,0.0,0.00028388,0.00016365,0,484898,0,0,0,0,0,0,0,0,0,0,0,0,0,0,0,0,0,0,0,0,0,0,0,0,0,0,1,0,0,0,0,0,0,0,0,0,0
3941,0.0483,25.0,996.565,17.7334,0.856521,911.077,0.788981,738.776,0.582881,74.6941,12.0679,2.8304,0.0,100000000.0,0.0,6.8653,3.0131e-09,0,93648.7,0,0,0,0,0,0,0,0,0,0,0,0,0,0,0,0,0,1,0,0,0,0,0,0,0,0,1,0,0,0,0,0,0,0,0,0,0
3942,0.0483,25.0,998.265,16.4963,0.796774,936.575,0.747122,792.314,0.591955,79.3253,12.2558,2.3288,0.0,930469,0.0,0.16125,1.1558e-10,0,64799.4,0,0,0,0,0,0,0,0,0,0,0,0,0,0,0,0,0,1,0,0,0,0,0,0,0,1,0,0,0,0,0,0,0,0,0,0,0
3942,0.0483,25.0,997.325,12.2056,0.589532,887.87,0.544954,732.571,0.399217,76.2698,8.26536,2.1691,0.0,870504,279806,18.27,6.9382e-11,0,112156,0,0,0,0,0,0,0,0,0,0,0,0,0,0,0,0,0,0,0,0,0,0,0,0,0,1,0,0,0,0,0,0,0,0,0,0,0
3942,0.27075,25.0,982.04,17.0272,4.61011,959.689,4.28865,781.665,3.35229,75.7704,12.3815,2.3405,0.0,100000000.0,0.0,6.1679,5.2102e-10,0,20056.7,0,0,0,0,0,0,0,0,0,0,0,0,0,0,0,0,0,1,0,0,0,0,0,0,0,0,0,0,0,0,1,0,0,0,0,0,0
3943,0.0483,25.0,996.565,12.2464,0.591499,884.952,0.542851,730.542,0.396576,75.7622,8.21068,2.636,0.0,100191,0.0,0.026134,1.2353e-09,0,100250,0,0,0,0,0,0,0,0,0,0,0,0,0,0,0,0,0,0,0,0,0,0,0,0,0,0,0,0,0,0,0,0,0,0,0,0,0
3943,0.0483,25.0,996.565,12.099,0.584383,875.955,0.535898,724.143,0.388067,75.8101,8.03451,2.1576,0.0,106775,83549.2,8.0717,7.7564e-11,0,98831.5,0,0,0,0,0,0,0,0,0,0,0,0,0,0,0,0,0,0,0,0,0,0,0,0,0,0,0,0,0,0,0,0,0,0,0,0,0
3943,0.0483,25.0,996.565,12.746,0.615631,887.43,0.559635,712.885,0.398956,73.0248,8.25995,2.4249,0.0,72632.6,56300,37.801,3.7707e-10,0,149775,0,0,0,0,0,0,0,0,0,0,0,0,0,0,0,0,0,1,0,0,0,0,0,0,0,0,0,0,0,0,0,0,0,0,0,0,0
3944,0.0483,25.0,998.265,12.9245,0.624255,887.4,0.571564,752.895,0.430328,77.6816,8.90948,1.8677,0.0,694098,47524,7.8734,5.3138e-12,0,88084.4,0,0,0,0,0,0,0,0,0,0,0,0,0,0,0,0,0,1,0,0,0,0,0,0,0,0,0,0,0,0,0,0,0,0,0,1,0
3944,0.0483,25.0,998.265,13.4542,0.649839,881.548,0.601723,722.828,0.434942,75.9242,9.00502,2.142,0.0,,,,7.1191e-11,0,,0,0,0,0,0,0,0,0,0,0,0,0,0,0,0,0,0,1,0,0,0,0,0,0,0,0,0,0,0,0,0,0,0,0,0,1,0
3944,0.0483,25.0,997.325,12.93,0.624517,878.035,0.579266,729.06,0.42232,77.0167,8.74368,2.0535,0.0,308076,199231,13.039,3.6081e-11,0,96636.1,0,0,0,0,0,0,0,0,0,0,0,0,0,0,0,0,0,0,0,0,0,0,0,0,0,0,0,0,0,0,0,0,0,0,0,1,0
3945,0.0483,25.0,998.265,11.1328,0.537715,902.498,0.48827,764.603,0.373333,76.9303,7.72945,1.8761,0.0,165270,57607,9.5783e-10,3.8721e-12,0,80728.5,0,0,0,0,0,0,0,0,0,0,0,0,0,0,0,0,0,1,0,0,0,0,0,0,0,0,0,0,0,0,0,0,0,0,0,0,0
3945,0.0483,25.0,998.265,0.958146,0.0462784,22.6149,0.0232178,15.3237,0.000355783,33.9948,0.00736611,3.3,0.0,,,,0.0,0,,0,0,0,0,0,0,0,0,0,0,0,0,0,0,0,0,0,1,0,0,0,0,0,0,0,0,0,0,0,0,0,0,0,0,0,0,0
3945,0.27075,25.775,1004.02,9.32685,2.52525,891.651,2.33616,754.371,1.76233,78.2689,6.50908,2.0736,0.0,36764.1,308090,0.7692,1.3556e-10,0,20403.2,0,0,0,0,0,0,0,0,0,0,0,0,0,0,0,0,0,0,0,0,0,0,0,0,0,0,0,0,0,0,1,0,0,0,0,0,0
3946,0.0483,25.0,1000.26,11.4193,0.551551,759.223,0.464516,551.194,0.256039,61.1436,5.30101,3.8971,0.0,22533.5,63095.5,45.449,2.7309e-07,0,233688,0,0,0,0,0,0,0,0,0,0,0,0,0,0,0,0,0,1,0,0,0,0,0,0,0,0,0,0,0,0,0,0,0,0,0,0,0
3950,0.0483,25.0,1000.26,12.3585,0.596917,872.401,0.538305,751.47,0.40452,77.6801,8.37515,1.7843,0.0,39575,36495,2.2417,2.9666e-12,0,80801.1,0,0,0,0,0,0,0,0,0,0,0,0,0,0,0,0,0,1,0,0,0,0,0,1,0,0,0,0,0,0,0,0,0,0,0,0,0
3950,0.0483,25.0,1000.26,12.147,0.586698,709.008,0.53684,583.692,0.31335,75.3292,6.48757,1.746,0.0,49132.3,58099,24.042,7.59e-11,0,107103,0,0,0,0,0,0,0,0,0,0,0,0,0,0,0,0,0,1,0,0,0,0,0,1,0,0,0,0,0,0,0,0,0,0,0,0,0
3950,0.0483,25.0,997.325,11.6134,0.560926,840.96,0.463709,650.58,0.301679,63.9535,6.24595,3.1829,0.0,33974,21211.6,57.294,1.7527e-08,0,201021,0,0,0,0,0,0,0,0,0,0,0,0,0,0,0,0,0,0,0,0,0,0,0,1,0,0,0,0,0,0,0,0,0,0,0,0,0
3950,0.0483,26.185,999.735,12.1758,0.588089,872.602,0.529366,756.706,0.400575,78.0593,8.29347,1.5192,0.0,,,,1.1485e-13,0,,0,0,0,0,0,0,0,0,0,0,0,0,0,0,0,0,0,0,0,0,0,0,1,0,0,0,0,0,0,0,0,0,0,0,0,0,0
3950,0.0483,26.47,999.735,3.22372,0.155706,873.119,0.0710482,431.664,0.0306689,22.559,0.634967,3.3,0.0,,,,0.0,0,,0,0,0,0,0,0,0,0,0,0,0,0,0,0,0,0,0,0,0,0,0,0,1,0,0,0,0,0,0,0,0,0,0,0,0,0,0
3950,0.0483,26.425,999.735,12.2543,0.591882,866.554,0.529804,743.7,0.394016,76.8214,8.15767,1.9744,0.0,,,,2.3511e-11,0,,0,0,0,0,0,0,0,0,0,0,0,0,0,0,0,0,0,0,0,0,0,0,1,0,0,0,0,0,0,0,0,0,0,0,0,0,0
3950,0.0483,26.45,999.735,12.1907,0.58881,871.51,0.529175,751.052,0.397438,77.4501,8.22853,1.5239,0.0,42361.9,26634.7,4.8999,1.3107e-13,0,66000.7,0,0,0,0,0,0,0,0,0,0,0,0,0,0,0,0,0,0,0,0,0,0,1,0,0,0,0,0,0,0,0,0,0,0,0,0,0
3950,0.0483,26.475,999.735,11.9959,0.5794,871.287,0.519899,752.879,0.391421,77.5362,8.10396,1.5856,0.0,49367.2,27873.8,2.8981,3.0352e-13,0,67626.2,0,0,0,0,0,0,0,0,0,0,0,0,0,0,0,0,0,0,0,0,0,0,1,0,0,0,0,0,0,0,0,0,0,0,0,0,0
3951,0.0483,25.0,1000.26,11.6887,0.564564,765.638,0.479191,532.029,0.254943,58.9803,5.27833,4.1497,0.0,52304.8,0.0,93.211,4.3264e-07,0,293384,0,0,0,0,0,0,0,0,0,0,0,0,0,0,0,0,0,1,0,0,0,0,0,0,0,0,0,0,0,0,0,0,0,0,0,0,0
3951,0.0483,25.0,1000.05,11.63,0.561728,719.633,0.501902,562.631,0.282385,69.8562,5.84649,2.4213,0.0,58667.5,104737,26.355,5.1993e-09,0,134934,0,0,0,0,0,0,0,0,0,0,0,0,0,0,0,0,0,0,0,0,0,0,0,0,1,0,0,0,0,0,0,0,0,0,0,0,0
3952,0.0483,25.0,999.866,12.9926,0.627544,627.311,0.511338,460.982,0.235718,59.8777,4.88028,3.3549,0.0,15516.3,16577.2,11.696,4.0291e-07,0,159439,0,0,0,0,0,0,0,0,0,0,0,0,0,0,0,0,0,1,0,0,0,0,0,0,0,0,0,0,0,0,0,0,1,0,1,0,0
3952,0.0483,25.0,999.866,12.4382,0.600765,621.901,0.489811,473.637,0.231992,62.0937,4.80315,3.3945,0.0,,,,4.5506e-07,0,,0,0,0,0,0,0,0,0,0,0,0,0,0,0,0,0,0,1,0,0,0,0,0,0,0,0,0,0,0,0,0,0,1,0,1,0,0
3953,0.0483,25.0,999.866,12.3802,0.597966,628.369,0.497063,468.385,0.232817,61.9617,4.82022,3.9929,0.0,16267.6,0.0,3.2748e-07,1.2693e-06,0,154603,0,0,0,0,0,0,0,0,0,0,0,0,0,0,0,0,0,1,0,0,0,0,0,0,0,0,0,0,0,0,0,0,0,1,1,0,0
3953,0.0483,25.0,999.866,12.4536,0.60151,578.017,0.483139,429.293,0.207408,59.6544,4.29417,3.993,0.0,12396.5,0.0,0.00047472,2.0879e-06,0,141586,0,0,0,0,0,0,0,0,0,0,0,0,0,0,0,0,0,1,0,0,0,0,0,0,0,0,0,0,0,0,0,0,0,1,1,0,0
3953,0.0483,25.0,1000.05,11.5512,0.557924,604.002,0.455249,434.127,0.197636,58.6479,4.09184,3.993,0.0,15591,0.0,18.661,1.5191e-06,0,217391,0,0,0,0,0,0,0,0,0,0,0,0,0,0,0,0,0,0,0,0,0,0,0,0,0,0,0,0,0,0,0,0,0,1,1,0,0
3974,0.0483,25.0,998.035,19.4155,0.937769,929.214,0.875695,767.011,0.671667,77.0802,13.9062,2.0932,0.0,100000000.0,419533,18.419,2.9084e-11,0,76796.9,0,0,0,0,0,0,0,0,0,0,0,0,0,0,0,0,0,1,0,0,0,0,0,0,0,0,0,1,0,0,0,0,0,0,0,0,0
3975,0.0483,25.0,998.035,17.5247,0.846442,959.336,0.801109,826.466,0.66209,81.5359,13.7079,1.8093,0.0,100000000.0,1.90226e+06,5.3913,8.645e-13,0,59373.8,0,0,0,0,0,0,0,0,0,0,0,0,0,0,0,0,0,1,0,0,0,0,0,0,0,0,0,0,1,0,0,0,0,0,0,0,0
3975,0.0483,25.0,998.035,17.1397,0.827849,946.851,0.778047,808.88,0.629347,80.2892,13.03,1.9397,0.0,369203,729874,2.2471e-05,4.4438e-12,0,53183.4,0,0,0,0,0,0,0,0,0,0,0,0,0,0,0,0,0,1,0,0,0,0,0,0,0,0,0,0,0,1,0,0,0,0,0,0,0